File: v44/data/Reflect2.UXD
; C:\DIFFDAT1\Praktikum\KochVogt\Reflect2.raw(Diffrac Plus V1.01 file) converted by XCH V1.0
_FILEVERSION=2
_SITE='Deutschland'
_USER='Administrator'
_GONIOMETER_CODE=4885
; D8 Theta/Theta; Special
_SAMPLE_CHANGER_CODE=0
_ATTACHMENTS_CODE=0
_GONIOMETER_RADIUS=350
_FIXED_DIVSLIT=0.600000
_FIXED_SAMPLESLIT=0.000000
_FIXED_DETSLIT=11.66
_MONOCHROMATOR=0
; None
_THIN_FILM='N'
_BETA_FILTER='Y'
_FIXED_ANTISLIT=8.340000
_ANALYZER_CODE=0
; None
_DATEMEASURED='28-Oct-2024 11:10:51'
_WL_UNIT='A'
_WL1=1.540600
_WL2=1.544390
_WL3=1.392220
_WLRATIO=0.500000
_ANODE='Cu'
; (Data for Range number 1)
_DRIVE='THETA'
_STEPTIME=5.000660
_STEPSIZE=0.005000
_STEPMODE='C'
_START=0.000000
_THETA=0.000000
_2THETA=0.200000
_KHI=0.000000
_PHI=90
_X=4.611000
_Y=0.600000
_Z=0.361000
_DIVERGENCE=0.000000
_ANTISCATTER=0.000000
_DETECTOR=5
_DETECTORSLIT='unkn'
_AUX1=0.000000
_AUX2=0.000000
_AUX3=0.000000
_TIMESTARTED=2.000000
_TEMP_RATE=-1.000000
_TEMP_DELAY=-1.000000
_KV=35
_MA=35
_RANGE_WL=1.540600
_3DPLANE=0
_GONIOMETER=0.197500
_PSDCHANNEL0=0
_2THETACOUNTS
   0.0000     35316
   0.0050     30770
   0.0100     31365
   0.0150     28311
   0.0200     27204
   0.0250     26868
   0.0300     23881
   0.0350     23781
   0.0400     21680
   0.0450     17217
   0.0500     16897
   0.0550     15705
   0.0600     13563
   0.0650     13372
   0.0700     12625
   0.0750     11196
   0.0800     10712
   0.0850     10246
   0.0900      9524
   0.0950      8784
   0.1000      8338
   0.1050      7599
   0.1100      6846
   0.1150      6330
   0.1200      5677
   0.1250      5191
   0.1300      4630
   0.1350      4191
   0.1400      3677
   0.1450      3299
   0.1500      2816
   0.1550      2511
   0.1600      2132
   0.1650      1869
   0.1700      1587
   0.1750      1425
   0.1800      1249
   0.1850      1152
   0.1900      1049
   0.1950       877
   0.2000       798
   0.2050       693
   0.2100       597
   0.2150       547
   0.2200       487
   0.2250       461
   0.2300       389
   0.2350       394
   0.2400       329
   0.2450       324
   0.2500       262
   0.2550       265
   0.2600       209
   0.2650       173
   0.2700       168
   0.2750       117
   0.2800        98
   0.2850        88
   0.2900        62
   0.2950        68
   0.3000        46
   0.3050        33
   0.3100        50
   0.3150        23
   0.3200        30
   0.3250        32
   0.3300        32
   0.3350        24
   0.3400        35
   0.3450        30
   0.3500        21
   0.3550        21
   0.3600        22
   0.3650        12
   0.3700        21
   0.3750        32
   0.3800         9
   0.3850        31
   0.3900        14
   0.3950        14
   0.4000        16
   0.4050        12
   0.4100        22
   0.4150        13
   0.4200        13
   0.4250         9
   0.4300        14
   0.4350        14
   0.4400        10
   0.4450        14
   0.4500         9
   0.4550        11
   0.4600        11
   0.4650         8
   0.4700        12
   0.4750        10
   0.4800         8
   0.4850         8
   0.4900        13
   0.4950         7
   0.5000         9
   0.5050         9
   0.5100        11
   0.5150         5
   0.5200        10
   0.5250         8
   0.5300         8
   0.5350         9
   0.5400         9
   0.5450         7
   0.5500        11
   0.5550         6
   0.5600         8
   0.5650        10
   0.5700         6
   0.5750         2
   0.5800         7
   0.5850         6
   0.5900         6
   0.5950         4
   0.6000         9
   0.6050         9
   0.6100         8
   0.6150         6
   0.6200         6
   0.6250         7
   0.6300         3
   0.6350         7
   0.6400        10
   0.6450         9
   0.6500         7
   0.6550         9
   0.6600         7
   0.6650        10
   0.6700        10
   0.6750         5
   0.6800        11
   0.6850         5
   0.6900         9
   0.6950        14
   0.7000        12
   0.7050        12
   0.7100         9
   0.7150        11
   0.7200        10
   0.7250         6
   0.7300         7
   0.7350         8
   0.7400        12
   0.7450         8
   0.7500         9
   0.7550        10
   0.7600         6
   0.7650         7
   0.7700         7
   0.7750         8
   0.7800         4
   0.7850         5
   0.7900         4
   0.7950         2
   0.8000         1
   0.8050         4
   0.8100         1
   0.8150         1
   0.8200         3
   0.8250         3
   0.8300         2
   0.8350         1
   0.8400         4
   0.8450         1
   0.8500         0
   0.8550         0
   0.8600         3
   0.8650         2
   0.8700         3
   0.8750         1
   0.8800         0
   0.8850         2
   0.8900         0
   0.8950         3
   0.9000         1
   0.9050         2
   0.9100         1
   0.9150         1
   0.9200         0
   0.9250         1
   0.9300         1
   0.9350         1
   0.9400         1
   0.9450         3
   0.9500         0
   0.9550         1
   0.9600         0
   0.9650         0
   0.9700         0
   0.9750         0
   0.9800         0
   0.9850         0
   0.9900         0
   0.9950         0
   1.0000         0
   1.0050         2
   1.0100         0
   1.0150         1
   1.0200         1
   1.0250         0
   1.0300         1
   1.0350         0
   1.0400         1
   1.0450         0
   1.0500         1
   1.0550         0
   1.0600         0
   1.0650         2
   1.0700         0
   1.0750         0
   1.0800         1
   1.0850         1
   1.0900         1
   1.0950         2
   1.1000         2
   1.1050         0
   1.1100         0
   1.1150         0
   1.1200         0
   1.1250         1
   1.1300         2
   1.1350         0
   1.1400         1
   1.1450         0
   1.1500         0
   1.1550         0
   1.1600         0
   1.1650         1
   1.1700         0
   1.1750         1
   1.1800         1
   1.1850         1
   1.1900         0
   1.1950         0
   1.2000         1
   1.2050         1
   1.2100         0
   1.2150         0
   1.2200         1
   1.2250         1
   1.2300         0
   1.2350         1
   1.2400         0
   1.2450         1
   1.2500         0
   1.2550         0
   1.2600         1
   1.2650         0
   1.2700         0
   1.2750         1
   1.2800         0
   1.2850         0
   1.2900         0
   1.2950         2
   1.3000         0
   1.3050         0
   1.3100         0
   1.3150         1
   1.3200         0
   1.3250         0
   1.3300         0
   1.3350         1
   1.3400         0
   1.3450         0
   1.3500         0
   1.3550         1
   1.3600         0
   1.3650         0
   1.3700         1
   1.3750         0
   1.3800         0
   1.3850         0
   1.3900         0
   1.3950         1
   1.4000         0
   1.4050         0
   1.4100         0
   1.4150         1
   1.4200         0
   1.4250         1
   1.4300         2
   1.4350         0
   1.4400         0
   1.4450         0
   1.4500         0
   1.4550         0
   1.4600         0
   1.4650         0
   1.4700         0
   1.4750         1
   1.4800         3
   1.4850         0
   1.4900         0
   1.4950         0
   1.5000         1
   1.5050         0
   1.5100         0
   1.5150         1
   1.5200         0
   1.5250         1
   1.5300         0
   1.5350         1
   1.5400         0
   1.5450         0
   1.5500         0
   1.5550         0
   1.5600         1
   1.5650         0
   1.5700         0
   1.5750         0
   1.5800         1
   1.5850         0
   1.5900         0
   1.5950         0
   1.6000         1
   1.6050         1
   1.6100         1
   1.6150         0
   1.6200         0
   1.6250         1
   1.6300         0
   1.6350         0
   1.6400         0
   1.6450         0
   1.6500         0
   1.6550         0
   1.6600         0
   1.6650         0
   1.6700         0
   1.6750         0
   1.6800         0
   1.6850         1
   1.6900         0
   1.6950         0
   1.7000         0
   1.7050         0
   1.7100         0
   1.7150         0
   1.7200         0
   1.7250         0
   1.7300         0
   1.7350         1
   1.7400         1
   1.7450         1
   1.7500         0
   1.7550         0
   1.7600         0
   1.7650         0
   1.7700         2
   1.7750         0
   1.7800         0
   1.7850         0
   1.7900         0
   1.7950         0
   1.8000         0
   1.8050         1
   1.8100         0
   1.8150         0
   1.8200         0
   1.8250         0
   1.8300         0
   1.8350         0
   1.8400         0
   1.8450         0
   1.8500         1
   1.8550         0
   1.8600         1
   1.8650         0
   1.8700         0
   1.8750         1
   1.8800         1
   1.8850         0
   1.8900         1
   1.8950         0
   1.9000         0
   1.9050         0
   1.9100         0
   1.9150         0
   1.9200         0
   1.9250         1
   1.9300         0
   1.9350         0
   1.9400         0
   1.9450         1
   1.9500         0
   1.9550         0
   1.9600         0
   1.9650         1
   1.9700         0
   1.9750         0
   1.9800         0
   1.9850         0
   1.9900         0
   1.9950         0
   2.0000         0
   2.0050         1
   2.0100         0
   2.0150         0
   2.0200         0
   2.0250         0
   2.0300         1
   2.0350         0
   2.0400         0
   2.0450         0
   2.0500         0
   2.0550         0
   2.0600         0
   2.0650         0
   2.0700         0
   2.0750         1
   2.0800         0
   2.0850         1
   2.0900         0
   2.0950         0
   2.1000         0
   2.1050         0